# extract --main -x 73,94 /data/hitran/2000/lines
#
# molecule: CH4
# temperature:   296.00 K
# pressure:     1013.25 mb
# number of lines:                        494
# min, max line strength:            1.98e-29     2.84e-25
# format: vSEan
# min, max airbroad.  widths:           0.028        0.066
# min, max selfbroad. widths:           0.047        0.088
# min, max temp. exponent:              0.750        0.750
#   position    strength      energy airWidth    Tdep
#       cm-1   cm-1/cm-2        cm-1     cm-1        
   73.011517   7.760e-29  2110.68600  0.05100  0.7500
   73.029663   1.200e-27  2167.96400  0.05100  0.7500
   73.037774   5.500e-28  2547.26300  0.04700  0.7500
   73.123968   5.130e-29  1756.68700  0.06400  0.7500
   73.167058   8.910e-29  2183.81400  0.05100  0.7500
   73.185288   6.620e-26   219.94130  0.06400  0.7500
   73.186223   9.120e-26   219.93680  0.06400  0.7500
   73.188704   7.340e-28   219.95150  0.06080  0.7500
   73.189639   1.010e-27   219.94700  0.06080  0.7500
   73.194938   4.520e-29  1756.55100  0.05600  0.7500
   73.207939   6.610e-27   219.91510  0.06400  0.7500
   73.208965   1.980e-25   219.94520  0.06100  0.7500
   73.211362   7.340e-29   219.92530  0.06080  0.7500
   73.212387   2.200e-27   219.95550  0.05790  0.7500
   73.215713   4.810e-29  1553.07200  0.06080  0.7500
   73.223307   3.970e-26   219.94130  0.06400  0.7500
   73.226734   4.410e-28   219.95150  0.06080  0.7500
   73.241914   5.090e-27   219.93680  0.06400  0.7500
   73.245346   5.650e-29   219.94700  0.06080  0.7500
   73.256671   9.600e-27   219.91350  0.05600  0.7500
   73.260108   1.070e-28   219.92370  0.05320  0.7500
   73.263630   6.810e-27   219.91510  0.06400  0.7500
   73.267069   7.560e-29   219.92530  0.06080  0.7500
   73.304947   1.590e-28  1558.50000  0.06400  0.7500
   73.346078   3.650e-28  2473.91700  0.04700  0.7500
   73.402069   2.450e-26  1562.85900  0.05600  0.7500
   73.549587   1.660e-28  2040.54000  0.05400  0.7500
   73.554893   1.210e-28  2111.00300  0.05100  0.7500
   73.567315   5.450e-29  3075.98700  0.04500  0.7500
   73.607103   3.370e-26  1562.78800  0.06400  0.7500
   73.688323   6.170e-29  2250.81200  0.04700  0.7500
   73.990581   5.170e-29  2724.77400  0.04700  0.7500
   74.040390   5.460e-26  1562.57400  0.06100  0.7500
   74.115963   7.880e-29  2319.22600  0.04400  0.7500
   74.231488   1.500e-28  2041.07500  0.04500  0.7500
   74.336896   5.980e-29  2249.98300  0.04700  0.7500
   74.344585   1.680e-27  1524.94000  0.06400  0.7500
   74.409058   2.360e-27  2166.58500  0.05200  0.7500
   74.425067   4.320e-29  1913.92200  0.05130  0.7500
   74.463181   2.140e-28  2473.38000  0.04700  0.7500
   74.499552   1.290e-27  1561.89600  0.06400  0.7500
   74.578102   5.000e-29  1558.81000  0.06400  0.7500
   74.593802   3.780e-28  2558.90200  0.04400  0.7500
   74.683352   7.220e-28  2323.29700  0.04700  0.7500
   74.703101   5.860e-29  3075.13300  0.04500  0.7500
   74.747173   4.270e-29  2319.24600  0.04700  0.7500
   74.847811   5.330e-29  2250.81200  0.04700  0.7500
   74.898209   2.940e-28  1554.16600  0.05320  0.7500
   75.027060   2.170e-28  2035.97600  0.05100  0.7500
   75.073739   1.010e-28  2400.81100  0.04700  0.7500
   75.084197   1.750e-28  2558.27800  0.04700  0.7500
   75.093315   4.050e-28  1554.09800  0.06080  0.7500
   75.122048   1.350e-28  2041.07500  0.04100  0.7500
   75.167459   1.100e-28  1979.38900  0.05100  0.7500
   75.175404   1.940e-28  2036.96900  0.05300  0.7500
   75.213104   2.190e-28  2040.54000  0.05400  0.7500
   75.256011   4.380e-29  2890.69700  0.04400  0.7500
   75.363578   1.350e-28  2035.32200  0.05100  0.7500
   75.431055   2.680e-27  2243.79500  0.05200  0.7500
   75.469675   1.060e-27  1641.16500  0.05800  0.7500
   75.506486   6.560e-28  1553.89400  0.05790  0.7500
   75.519177   3.440e-27  1918.84200  0.05400  0.7500
   75.622956   4.540e-29  2167.96400  0.05100  0.7500
   75.654519   1.930e-28  1979.42900  0.05100  0.7500
   75.659816   1.640e-27  2243.58700  0.05100  0.7500
   75.765315   1.100e-27  2243.49100  0.04100  0.7500
   75.790341   1.450e-27  1554.82000  0.05600  0.7500
   75.794044   1.590e-28  2557.48800  0.04700  0.7500
   75.997205   3.940e-27  1920.30700  0.05400  0.7500
   76.048012   3.740e-28  2044.34200  0.05100  0.7500
   76.185576   1.860e-28  1553.99000  0.06400  0.7500
   76.210258   1.490e-28  2044.95100  0.05100  0.7500
   76.259540   1.720e-27  1641.04800  0.05800  0.7500
   76.291504   1.350e-26  1598.19500  0.05200  0.7500
   76.409032   1.450e-28  2325.69600  0.03600  0.7500
   76.412104   8.700e-28  1555.39300  0.06400  0.7500
   76.484283   2.020e-27  1919.33700  0.04500  0.7500
   76.490385   8.350e-29  2324.32000  0.04700  0.7500
   76.520377   6.430e-29  2397.98100  0.04700  0.7500
   76.656987   1.550e-28  1590.21600  0.04940  0.7500
   76.707382   1.140e-28  2634.08000  0.02900  0.7500
   76.720616   3.200e-28  1562.78800  0.05800  0.7500
   76.754073   2.390e-26  1597.63700  0.05800  0.7500
   76.886776   4.710e-28  1562.85900  0.05200  0.7500
   76.910416   3.410e-27  1521.28500  0.05600  0.7500
   76.970345   1.340e-28  2633.99000  0.04700  0.7500
   76.979062   1.340e-28  2325.66000  0.04700  0.7500
   77.099850   2.750e-28  1589.67800  0.05510  0.7500
   77.125495   1.370e-27  1639.50900  0.05800  0.7500
   77.185006   1.840e-28  2250.81200  0.04700  0.7500
   77.188981   1.920e-28   458.88100  0.06000  0.7500
   77.202667   3.080e-28  2556.01700  0.04400  0.7500
   77.209950   3.410e-28  2166.58500  0.05200  0.7500
   77.211068   5.880e-29  2557.48800  0.04700  0.7500
   77.231937   2.030e-28   435.77600  0.06000  0.7500
   77.269839   3.180e-28   415.38900  0.06000  0.7500
   77.296457   5.470e-29  2323.51400  0.04700  0.7500
   77.302688   8.720e-28   397.72000  0.06000  0.7500
   77.330483   5.500e-28   382.77000  0.06000  0.7500
   77.353224   6.540e-28   370.53800  0.06000  0.7500
   77.370912   1.480e-27   361.02400  0.06000  0.7500
   77.383546   8.090e-28   354.22800  0.06000  0.7500
   77.391126   8.510e-28   350.15100  0.06000  0.7500
   77.393653   8.660e-28   348.79200  0.06000  0.7500
   77.403356   3.550e-27  1639.90400  0.05800  0.7500
   77.490997   5.360e-26  1596.72600  0.05800  0.7500
   77.519944   4.650e-29  2173.29200  0.05100  0.7500
   77.541763   8.360e-27  1410.76700  0.06600  0.7500
   77.613065   2.250e-28  1561.89600  0.05800  0.7500
   77.684037   4.660e-29  2478.33300  0.04400  0.7500
   77.811741   6.160e-28  1588.79400  0.05510  0.7500
   77.815181   2.630e-27  1521.46900  0.06400  0.7500
   77.859175   1.740e-28  2397.98100  0.04700  0.7500
   77.864649   1.660e-28  2633.49600  0.04400  0.7500
   77.895073   1.620e-28  1558.50000  0.06400  0.7500
   78.006456   2.260e-28  2249.98300  0.04700  0.7500
   78.013485   4.590e-28  2711.36100  0.04400  0.7500
   78.113797   4.340e-28  2035.97600  0.05400  0.7500
   78.114362   5.750e-29  2474.40300  0.03600  0.7500
   78.134274   3.180e-27  2044.95100  0.05400  0.7500
   78.138551   2.370e-28  2324.50100  0.04700  0.7500
   78.184843   1.780e-27  1561.71900  0.05800  0.7500
   78.284808   1.550e-28  2044.95100  0.05400  0.7500
   78.314506   9.740e-29  1402.69900  0.06270  0.7500
   78.319693   3.770e-28  1931.57100  0.05400  0.7500
   78.322481   2.140e-28  1931.65400  0.05400  0.7500
   78.376436   3.950e-28  1562.78800  0.05800  0.7500
   78.445624   2.940e-26  1640.20900  0.05800  0.7500
   78.494742   2.840e-28  2710.96000  0.04700  0.7500
   78.510118   6.080e-29  2162.48300  0.05100  0.7500
   78.510852   7.080e-29  2043.91800  0.05040  0.7500
   78.552667   1.010e-28  1552.92600  0.05510  0.7500
   78.641223   9.150e-27  1561.56700  0.05800  0.7500
   78.651609   1.340e-28  2720.06900  0.04400  0.7500
   78.652969   1.430e-25  1353.52800  0.06600  0.7500
   78.698893   1.150e-28  2323.40600  0.03600  0.7500
   78.706138   1.930e-28  2710.78800  0.02900  0.7500
   78.771212   4.520e-29  2161.83500  0.04100  0.7500
   78.827507   1.370e-27  2044.34200  0.05400  0.7500
   78.830264   3.940e-28  2035.32200  0.05400  0.7500
   78.837752   5.170e-29  2394.40700  0.03600  0.7500
   78.859365   9.630e-29  2724.77400  0.04700  0.7500
   78.864379   4.250e-27  2036.96900  0.05300  0.7500
   78.927784   8.680e-26  1353.59600  0.05800  0.7500
   78.967794   1.470e-27  2044.34200  0.05400  0.7500
   79.153255   5.290e-29  1553.24200  0.05510  0.7500
   79.268885   4.830e-27  1561.89600  0.05800  0.7500
   79.272867   2.460e-28  2473.24400  0.03600  0.7500
   79.328660   3.430e-27  1561.71900  0.05800  0.7500
   79.340252   4.160e-29  1631.18600  0.05510  0.7500
   79.370268   5.020e-29  2161.19500  0.05100  0.7500
   79.383967   9.030e-28  1641.04800  0.05800  0.7500
   79.397945   8.650e-27  1553.99000  0.06400  0.7500
   79.402923   1.010e-28  1546.88500  0.06080  0.7500
   79.477932   7.690e-28  1636.61500  0.05800  0.7500
   79.571468   1.680e-27  1345.16600  0.06270  0.7500
   79.648041   6.410e-29  2723.91100  0.02900  0.7500
   79.744906   7.320e-29  2804.39500  0.04700  0.7500
   79.777313   1.980e-27  2035.97600  0.05400  0.7500
   79.829386   1.020e-27  1345.23200  0.05510  0.7500
   79.906123   1.230e-26  1409.00700  0.06600  0.7500
   79.923706   4.360e-29  2393.99400  0.04700  0.7500
   79.927467   6.050e-29  2243.58700  0.04700  0.7500
   79.928964   3.480e-28  2473.17800  0.04700  0.7500
   79.935998   9.680e-28  2035.32200  0.05400  0.7500
   80.106483   5.500e-29  2804.25400  0.04700  0.7500
   80.133061   6.480e-27  1556.48200  0.06100  0.7500
   80.161294   8.000e-29  1549.23900  0.05790  0.7500
   80.200334   3.100e-28  2243.79500  0.04400  0.7500
   80.239008   2.320e-28  1636.39500  0.05800  0.7500
   80.240342   1.020e-28  2556.01700  0.04400  0.7500
   80.278789   3.520e-26  1599.28400  0.05800  0.7500
   80.324711   6.820e-28  2172.79600  0.05200  0.7500
   80.336362   3.490e-28  1631.47900  0.05510  0.7500
   80.357090   4.070e-27  2034.79300  0.05300  0.7500
   80.376346   8.180e-29  2723.11100  0.04700  0.7500
   80.386913   1.070e-27  2035.32200  0.05400  0.7500
   80.437304   4.060e-28  1591.24700  0.05510  0.7500
   80.527783   7.010e-27  1639.90400  0.05800  0.7500
   80.558138   1.410e-28  1401.02600  0.06270  0.7500
   80.621723   2.190e-28  2040.54000  0.05100  0.7500
   80.684783   4.090e-29  2718.00000  0.04700  0.7500
   80.977962   4.300e-29  1548.21300  0.06080  0.7500
   81.002230   3.540e-27  1555.39300  0.06400  0.7500
   81.054409   5.210e-27  1639.74600  0.05200  0.7500
   81.070048   8.550e-28  1353.52800  0.06600  0.7500
   81.103410   8.100e-29  2162.48300  0.05100  0.7500
   81.350655   3.400e-28  2035.32200  0.05100  0.7500
   81.364662   7.180e-28  1593.02600  0.05800  0.7500
   81.440857   2.350e-27  1554.82000  0.05600  0.7500
   81.493571   5.140e-29  2716.96500  0.04700  0.7500
   81.591560   5.220e-29  2553.10700  0.04700  0.7500
   81.603588   8.390e-29  2475.88400  0.04700  0.7500
   81.656729   6.020e-29  2161.83500  0.04100  0.7500
   81.880481   9.700e-29  2168.93200  0.05100  0.7500
   82.019598   9.690e-29  2167.96400  0.05100  0.7500
   82.026861   1.500e-28  2173.29200  0.05100  0.7500
   82.073020   1.440e-27  2041.07500  0.04500  0.7500
   82.127067   5.040e-26  1409.37600  0.05800  0.7500
   82.171967   5.250e-29  2028.72400  0.04940  0.7500
   82.219781   1.910e-25  1408.48500  0.06300  0.7500
   82.236519   5.900e-28  2041.07500  0.04500  0.7500
   82.298333   8.420e-29  1631.18600  0.05510  0.7500
   82.315022   7.920e-26  1409.00700  0.06600  0.7500
   82.337812   5.540e-29  2984.90000  0.03900  0.7500
   82.438245   6.040e-29  2475.84000  0.04700  0.7500
   82.447216   9.710e-28  2386.37300  0.04700  0.7500
   82.545739   2.270e-28  2040.54000  0.05400  0.7500
   82.558220   6.450e-29  2303.81500  0.04700  0.7500
   82.576491   9.800e-28  2386.25500  0.04700  0.7500
   82.599877   8.540e-29  2173.48600  0.04100  0.7500
   82.629633   8.660e-29  1830.03700  0.05800  0.7500
   82.665480   2.330e-28  2558.90200  0.04400  0.7500
   82.680262   5.840e-28  1401.38100  0.05510  0.7500
   82.696272   2.640e-27  2040.54000  0.05400  0.7500
   82.748949   6.420e-28  1729.80900  0.05800  0.7500
   82.780307   2.220e-27  1400.52500  0.05980  0.7500
   82.801607   6.240e-29  1631.03400  0.04940  0.7500
   82.847668   1.030e-28  2101.19000  0.05200  0.7500
   82.855715   6.010e-29  1829.81100  0.05800  0.7500
   82.862586   9.200e-28  1401.02600  0.06270  0.7500
   82.921246   4.460e-29  1829.74600  0.05200  0.7500
   82.975097   7.740e-29  2633.99000  0.04700  0.7500
   82.998198   5.070e-29  2901.00300  0.04500  0.7500
   83.015040   9.420e-29  1925.91600  0.04500  0.7500
   83.039420   6.080e-29  2030.78800  0.04940  0.7500
   83.041398   1.610e-28  1682.88800  0.05800  0.7500
   83.123246   5.440e-27  1597.63700  0.05800  0.7500
   83.126053   7.590e-29  2553.10700  0.04700  0.7500
   83.175792   6.210e-29  1589.67800  0.05510  0.7500
   83.206645   1.280e-28  2558.27800  0.04700  0.7500
   83.217249   3.810e-26  1641.16500  0.05800  0.7500
   83.346124   8.130e-29  2101.21200  0.05100  0.7500
   83.443074   7.170e-29  2101.22300  0.04100  0.7500
   83.478814   6.610e-29  1830.71400  0.05800  0.7500
   83.520041   3.490e-26  1641.04800  0.05800  0.7500
   83.532889   8.860e-28  1729.76100  0.05200  0.7500
   83.565513   7.550e-26   293.17010  0.05200  0.7500
   83.569152   1.290e-25   293.16460  0.05800  0.7500
   83.569423   8.380e-28   293.18380  0.04940  0.7500
   83.570556   4.920e-29  2473.91700  0.04700  0.7500
   83.573064   1.440e-27   293.17820  0.05510  0.7500
   83.576240   2.840e-25   293.15420  0.05800  0.7500
   83.580154   3.150e-27   293.16780  0.05510  0.7500
   83.587512   2.850e-28  1926.30300  0.05400  0.7500
   83.602771   1.470e-28  2633.36200  0.04700  0.7500
   83.603703   1.000e-28  1830.53700  0.05800  0.7500
   83.604138   8.690e-28  1599.28400  0.05800  0.7500
   83.607171   6.710e-27   293.12660  0.05800  0.7500
   83.607196   1.870e-25   293.17870  0.05800  0.7500
   83.611093   7.440e-29   293.14020  0.05510  0.7500
   83.611116   2.070e-27   293.19230  0.05510  0.7500
   83.640211   2.260e-26   293.16460  0.05800  0.7500
   83.644143   2.500e-28   293.17820  0.05510  0.7500
   83.647591   3.270e-27   293.17870  0.05800  0.7500
   83.651155   2.820e-26   293.17010  0.05200  0.7500
   83.651525   3.630e-29   293.19230  0.05510  0.7500
   83.655090   3.130e-28   293.18380  0.04940  0.7500
   83.662887   2.070e-27   293.12300  0.05800  0.7500
   83.666823   2.300e-29   293.13660  0.05510  0.7500
   83.678230   5.170e-27   293.12660  0.05800  0.7500
   83.682173   5.740e-29   293.14020  0.05510  0.7500
   83.703282   1.960e-26   293.12300  0.05800  0.7500
   83.703537   6.680e-29  2552.51700  0.02900  0.7500
   83.707232   2.180e-28   293.13660  0.05510  0.7500
   83.726282   1.030e-28  2711.36100  0.04400  0.7500
   83.777042   1.220e-28  2474.50100  0.04700  0.7500
   83.785743   2.030e-28  2556.01700  0.04400  0.7500
   83.788410   2.810e-28  1923.41200  0.05400  0.7500
   83.811922   1.150e-28  2636.25700  0.04400  0.7500
   83.860661   4.750e-27  2034.79300  0.05200  0.7500
   83.919784   3.440e-28  1633.38800  0.05800  0.7500
   83.929383   1.040e-28  2557.48800  0.04700  0.7500
   83.932014   8.320e-29  2394.40700  0.03600  0.7500
   83.975270   2.180e-28  1830.87100  0.05800  0.7500
   83.996674   4.050e-29  2038.38200  0.05130  0.7500
   84.067737   3.650e-28  1926.30300  0.05400  0.7500
   84.077009   5.520e-29  2710.96000  0.04700  0.7500
   84.083785   2.800e-26  1437.20100  0.05600  0.7500
   84.147490   4.870e-26  1437.32100  0.06400  0.7500
   84.246658   4.170e-28  2474.65500  0.04400  0.7500
   84.257559   7.210e-29  1590.21600  0.04940  0.7500
   84.277463   6.300e-27  1598.19500  0.05200  0.7500
   84.309456   5.960e-29  2473.17800  0.04700  0.7500
   84.326280   5.320e-29  1830.71400  0.05800  0.7500
   84.333093   1.410e-28  2884.36100  0.04700  0.7500
   84.343245   1.300e-28  2393.99400  0.04700  0.7500
   84.367287   2.640e-28  1728.19000  0.05800  0.7500
   84.397775   6.740e-28  1925.91600  0.04500  0.7500
   84.470232   1.210e-25  1437.49400  0.06100  0.7500
   84.539116   7.000e-29  1636.26100  0.05200  0.7500
   84.580361   3.080e-28  1931.57100  0.05400  0.7500
   84.597873   1.430e-28  2884.14000  0.04700  0.7500
   84.642094   4.400e-29  2899.22300  0.04500  0.7500
   84.663857   1.070e-27  1639.90400  0.05800  0.7500
   84.668469   6.650e-27  1931.65400  0.05400  0.7500
   84.717898   1.680e-28  2633.28200  0.04700  0.7500
   84.786264   3.210e-28  1428.67600  0.05320  0.7500
   84.788668   6.190e-27  1931.57100  0.05400  0.7500
   84.795231   5.290e-29  2030.78800  0.05040  0.7500
   84.806503   6.930e-29   561.84500  0.06000  0.7500
   84.806616   5.550e-27  2036.96900  0.05200  0.7500
   84.829134   6.320e-28  1631.80500  0.05800  0.7500
   84.850187   5.560e-28  1428.79100  0.06080  0.7500
   84.859313   3.000e-28   536.06990  0.06000  0.7500
   84.873069   5.790e-29  1639.50900  0.05800  0.7500
   84.898356   4.300e-29  2473.38000  0.04700  0.7500
   84.903480   4.560e-28  1632.39500  0.05510  0.7500
   84.906565   2.390e-28   513.00810  0.06000  0.7500
   84.948258   3.340e-28   492.65900  0.06000  0.7500
   84.984391   8.590e-28   475.02300  0.06000  0.7500
   84.991241   2.400e-28  2393.34200  0.04400  0.7500
   85.014966   5.220e-28   460.10000  0.06000  0.7500
   85.033443   1.280e-28  2720.06900  0.04400  0.7500
   85.039981   6.060e-28   447.89100  0.06000  0.7500
   85.059438   1.350e-27   438.39500  0.06000  0.7500
   85.067903   2.430e-27  2035.32200  0.05100  0.7500
   85.073335   7.310e-28   431.61200  0.06000  0.7500
   85.081674   7.650e-28   427.54200  0.06000  0.7500
   85.084453   7.760e-28   426.18500  0.06000  0.7500
   85.170515   1.380e-27  1428.95600  0.05790  0.7500
   85.185932   2.760e-27  2035.97600  0.05100  0.7500
   85.191800   4.190e-28  1632.28400  0.05510  0.7500
   85.286557   1.960e-26  1680.76000  0.05800  0.7500
   85.375988   5.710e-27  1728.59600  0.05800  0.7500
   85.449497   2.050e-27  1727.84500  0.05200  0.7500
   85.530694   2.210e-28  1923.41200  0.05400  0.7500
   85.705399   2.250e-28  1672.85400  0.05510  0.7500
   86.019548   1.400e-28  2311.96100  0.04700  0.7500
   86.227608   5.070e-29  2028.72400  0.05040  0.7500
   86.228486   8.140e-28  1727.74300  0.05800  0.7500
   86.366746   2.470e-26  1679.56300  0.05800  0.7500
   86.387398   9.340e-29  2168.93200  0.05100  0.7500
   86.564465   1.150e-28  1923.41200  0.05400  0.7500
   86.578599   5.270e-28  1641.16500  0.05800  0.7500
   86.658383   2.230e-28  2804.03900  0.04400  0.7500
   86.683456   5.330e-29  2553.10700  0.04700  0.7500
   86.757571   2.840e-28  1671.68500  0.05510  0.7500
   86.802806   4.370e-29  3087.71200  0.03900  0.7500
   86.810084   4.040e-28  1592.75300  0.05800  0.7500
   86.849596   3.850e-28  2633.22000  0.04400  0.7500
   86.900597   2.430e-28  1920.30700  0.05400  0.7500
   87.044211   2.160e-28  1633.38800  0.05800  0.7500
   87.109948   4.860e-29  2035.97600  0.05400  0.7500
   87.132152   1.100e-27  1630.17500  0.05800  0.7500
   87.142233   1.470e-28  1641.04800  0.05800  0.7500
   87.260482   1.550e-28  2035.97600  0.05400  0.7500
   87.431097   6.190e-29  1641.16500  0.05800  0.7500
   87.500053   5.130e-29  2162.48300  0.05100  0.7500
   87.544456   6.670e-29  2386.37300  0.04700  0.7500
   87.570420   6.670e-29  1719.80400  0.05510  0.7500
   87.618085   6.580e-27  1437.32100  0.06400  0.7500
   87.701204   4.410e-29  2298.55400  0.04700  0.7500
   87.733835   9.200e-28  1593.02600  0.05800  0.7500
   87.847399   1.400e-28  2035.32200  0.05400  0.7500
   87.962703   6.520e-29  2803.63300  0.04700  0.7500
   87.989480   1.380e-28  1724.56800  0.05800  0.7500
   88.099181   6.800e-28  1639.74600  0.05200  0.7500
   88.114372   7.520e-29  2553.10700  0.04700  0.7500
   88.147909   7.540e-29  1428.79100  0.06080  0.7500
   88.234419   7.720e-29  1639.50900  0.05800  0.7500
   88.286050   5.710e-28  1639.90400  0.05800  0.7500
   88.309876   6.050e-29  2553.10700  0.04700  0.7500
   88.398581   1.540e-28  2034.79300  0.05300  0.7500
   88.434748   5.780e-29  2305.97200  0.03600  0.7500
   88.561395   8.040e-29  2312.24900  0.04700  0.7500
   88.614772   4.750e-29  2803.55900  0.02900  0.7500
   88.713323   5.530e-28  1729.80900  0.05800  0.7500
   88.721773   6.920e-27  1436.86500  0.06400  0.7500
   88.729901   9.590e-29  2552.51700  0.03600  0.7500
   88.760572   2.300e-28  1641.04800  0.05800  0.7500
   88.998529   5.260e-29  1630.80500  0.05510  0.7500
   89.017772   2.000e-28  2167.96400  0.05100  0.7500
   89.086917   4.780e-27  1639.50900  0.05800  0.7500
   89.205179   7.790e-29  1428.35400  0.06080  0.7500
   89.246061   1.130e-26  1926.88300  0.05300  0.7500
   89.247452   9.840e-27  1728.59600  0.05800  0.7500
   89.487277   3.640e-28  2539.03100  0.03600  0.7500
   89.524950   5.470e-28  2538.99600  0.04700  0.7500
   89.565293   9.690e-29  1631.47900  0.05510  0.7500
   89.583907   2.030e-28  1920.30700  0.05400  0.7500
   89.594044   9.200e-28  1919.33700  0.04500  0.7500
   89.598410   9.170e-28  2538.92900  0.04400  0.7500
   89.617281   3.430e-28  2161.19500  0.05100  0.7500
   89.680973   8.910e-27  1640.20900  0.05800  0.7500
   89.741963   2.460e-26  1682.88800  0.05800  0.7500
   89.758156   5.280e-29  2716.96500  0.04700  0.7500
   89.780459   4.270e-29  1631.18600  0.05510  0.7500
   89.818146   2.130e-26  1682.47300  0.05200  0.7500
   89.830795   4.770e-29  2634.08000  0.02900  0.7500
   89.843340   5.040e-29  1585.02900  0.05510  0.7500
   89.848179   5.800e-27  1926.30300  0.05400  0.7500
   89.904388   3.920e-27  1639.90400  0.05800  0.7500
   89.937084   1.090e-28  2634.83600  0.04700  0.7500
   89.948757   2.860e-28  1674.87200  0.05510  0.7500
   89.974596   4.380e-29  2701.63300  0.04700  0.7500
   90.010299   4.360e-29  2701.59500  0.04700  0.7500
   90.015132   6.790e-28  1828.82700  0.05400  0.7500
   90.015772   2.460e-28  1674.47400  0.04940  0.7500
   90.015789   2.250e-27  1639.74600  0.05200  0.7500
   90.056487   1.500e-28  1926.30300  0.05400  0.7500
   90.064133   4.480e-27  1920.30700  0.05400  0.7500
   90.099950   5.560e-28  1727.74300  0.05800  0.7500
   90.100998   8.120e-28  1918.84200  0.05400  0.7500
   90.135432   4.410e-27  1592.75300  0.05800  0.7500
   90.174697   4.030e-29  1623.66100  0.04940  0.7500
   90.178971   7.120e-29  2303.81500  0.04700  0.7500
   90.189632   3.400e-27  1630.61000  0.05200  0.7500
   90.232353   5.800e-29  1623.25200  0.05510  0.7500
   90.256579   4.950e-27  1630.17500  0.05800  0.7500
   90.258982   3.570e-27  1925.91600  0.04500  0.7500
   90.331661   9.610e-27  1728.19000  0.05800  0.7500
   90.470413   1.380e-28  2547.84300  0.04700  0.7500
   90.528162   4.430e-29  3067.43200  0.02800  0.7500
   90.606318   6.680e-29  3067.36500  0.04500  0.7500
   90.744930   5.330e-29  2984.38800  0.04500  0.7500
   90.756179   1.120e-28  3067.23800  0.03900  0.7500
   90.911740   8.220e-29  1924.79900  0.05130  0.7500
   90.976779   2.110e-27  1919.33700  0.04500  0.7500
   90.983177   7.550e-29  2547.84300  0.04700  0.7500
   91.021953   1.240e-28  2547.26300  0.04700  0.7500
   91.039605   7.320e-29  1924.71900  0.05130  0.7500
   91.134769   3.880e-27  1918.84200  0.05400  0.7500
   91.180284   1.810e-27  1633.38800  0.05800  0.7500
   91.240920   1.180e-28  1719.80400  0.05510  0.7500
   91.297693   4.590e-29  1822.89600  0.05800  0.7500
   91.327549   1.100e-28  2306.65300  0.04700  0.7500
   91.417542   7.240e-29  1828.88900  0.05400  0.7500
   91.439644   5.490e-29  2233.06100  0.04700  0.7500
   91.514923   4.680e-29  2461.00200  0.03600  0.7500
   91.560911   7.900e-29  2547.26300  0.04700  0.7500
   91.655730   2.040e-28  1674.39100  0.05800  0.7500
   91.701212   5.300e-28  1775.96200  0.05400  0.7500
   91.930286   3.160e-28  2402.63900  0.04700  0.7500
   91.940227   1.420e-27  1827.39600  0.04500  0.7500
   91.988871   1.090e-28  2803.48700  0.04700  0.7500
   92.000045   5.130e-29  2461.10700  0.04700  0.7500
   92.085506   1.810e-27  1822.76100  0.05800  0.7500
   92.112468   1.480e-26  1462.70800  0.05600  0.7500
   92.125554   1.550e-28  1720.43200  0.05800  0.7500
   92.145158   5.550e-28  1822.89600  0.05800  0.7500
   92.203321   2.650e-28  1822.95600  0.05200  0.7500
   92.278579   1.150e-28  1719.41300  0.05510  0.7500
   92.320294   1.770e-28  2400.81100  0.04700  0.7500
   92.349991   9.670e-27  1463.04300  0.06400  0.7500
   92.361935   2.170e-28  2402.10500  0.03600  0.7500
   92.394483   4.680e-29   675.08110  0.06000  0.7500
   92.458159   1.030e-28   646.65100  0.06000  0.7500
   92.494269   2.690e-28  1720.80000  0.05200  0.7500
   92.503931   4.840e-28  1826.33800  0.05400  0.7500
   92.515770   3.350e-28   620.92900  0.06000  0.7500
   92.567317   2.380e-28   597.91390  0.06000  0.7500
   92.576708   1.850e-27  1631.80500  0.05800  0.7500
   92.612800   3.120e-28   577.60710  0.06000  0.7500
   92.652219   7.730e-28   560.00700  0.06000  0.7500
   92.678059   6.110e-29  2711.36100  0.04400  0.7500
   92.685573   4.580e-28   545.11500  0.06000  0.7500
   92.712862   5.230e-28   532.93100  0.06000  0.7500
   92.713700   5.730e-27  1923.41200  0.05400  0.7500
   92.734088   1.160e-27   523.45400  0.06000  0.7500
   92.749248   6.200e-28   516.68510  0.06000  0.7500
   92.758345   6.460e-28   512.62400  0.06000  0.7500
   92.761377   6.540e-28   511.27000  0.06000  0.7500
   92.871265   6.010e-26  1729.88900  0.05800  0.7500
   93.004383   1.720e-28  1454.66800  0.05320  0.7500
   93.007414   8.040e-29  1914.19300  0.05800  0.7500
   93.014616   3.610e-27  1827.29200  0.05400  0.7500
   93.066533   8.710e-29  1914.14100  0.05800  0.7500
   93.067312   2.510e-27  1679.56300  0.05800  0.7500
   93.073479   7.720e-27  1682.88800  0.05800  0.7500
   93.086984   3.440e-26  1729.80900  0.05800  0.7500
   93.121074   7.110e-29  2724.77400  0.04700  0.7500
   93.138892   8.720e-29  1674.87200  0.05510  0.7500
   93.194823   2.260e-26  1729.76100  0.05200  0.7500
   93.223708   1.130e-28  1454.99000  0.06080  0.7500
   93.483590   9.910e-28  1460.50600  0.06400  0.7500
   93.538138   1.180e-28  2400.81100  0.04700  0.7500
   93.771007   6.250e-29  1915.16000  0.05200  0.7500
   93.812422   2.460e-27  1826.49400  0.05400  0.7500
   93.890690   1.780e-27   376.82630  0.05800  0.7500
   93.895088   1.980e-29   376.84390  0.05510  0.7500
   93.902233   1.180e-28  1915.04100  0.05800  0.7500
   93.915564   1.630e-25   376.80480  0.05800  0.7500
   93.919970   1.810e-27   376.82240  0.05510  0.7500
   93.931085   2.060e-25   376.78590  0.05800  0.7500
   93.935497   2.290e-27   376.80350  0.05510  0.7500
   93.952203   2.700e-26  1773.78100  0.05300  0.7500
   93.958358   4.400e-29  2547.26300  0.04700  0.7500
   93.977686   1.720e-25   376.82130  0.05200  0.7500
   93.979012   2.170e-25   376.82630  0.05800  0.7500
   93.982105   1.910e-27   376.83890  0.04940  0.7500
   93.983432   2.410e-27   376.84390  0.05510  0.7500
   93.986623   3.230e-27   376.73370  0.05800  0.7500
   93.991050   3.590e-29   376.75130  0.05510  0.7500
